onset	duration	trial_type1	trial_type2	stimulus	cue_onset	response_time	correct_response
0.158887300000004	0	word	concrete	coastline	1.8014226000001	0.471594399999958	0
3.9592294000003	0	word	concrete	sportsman	5.6749998000001	0.843585299999631	0
12.9406370999999	0	nonword	abstract	intirgiment	14.8719588	0.984086899999965	1
24.4267475999999	0	word	abstract	similarity	26.2094022000002	0.461940499999855	1
30.6592851	0	nonword	concrete	troitor	32.2065581000002	1.30957439999974	1
36.6757524000004	0	word	concrete	spokesman	38.3893913000002	0.40415829999938	1
45.6426475	0	word	concrete	teaspoon	47.2756165	0.348583999999846	0
49.4260691	0	nonword	abstract	anolysin	51.1424033	0.407056699999429	1
60.6926986	0	nonword	abstract	ofriliase	62.5565259	0.568524599999818	1
69.810571299999	0	word	abstract	euphoria	71.4564919	0.440417599999818	1
75.9090115	0	word	concrete	courthouse	77.705379399999	0.415642499999648	1
79.8592671	0	word	concrete	pillbox	81.6230249	0.527055699999891	0
91.1922845	0	nonword	concrete	comprohind	93.025909	0.45073979999961	1
102.5760723	0	nonword	abstract	incritilate	104.4734929	0.663560399999823	1
114.025577	0	word	concrete	sergeant	115.7105007	0.369463699999414	1
117.8758753	0	nonword	abstract	frigiliny	119.5233599	0.981438499999512	1
126.7916289	0	nonword	abstract	respirlinle	128.5564748	0.434896299999763	1
138.1093956	0	nonword	concrete	soits	139.7093875	0.509594899999683	0
149.2594856	0	word	abstract	realism	150.9402737	0.483674199999768	1
160.4924827	0	nonword	concrete	wearabro	162.2066712	0.41552509999974	1
169.4594336	0	word	concrete	frostbite	171.2400363	0.516537299999527	1
175.692816	0	nonword	abstract	deslicative	177.742726	0.45327109999971	1
187.3090185	0	word	abstract	mortality	189.0548916	0.607534199999918	0
198.6095566	0	nonword	concrete	procunct	200.3589592	0.878986799999438	1
204.8096954	0	nonword	abstract	dissilative	206.7423916	1.09426029999985	1
211.1933599	0	word	abstract	ideology	212.9394532	0.423192099999596	1
215.0925437	0	word	concrete	cucumber	216.6893065	0.444299599999794	1
223.9590445	0	nonword	concrete	scalptare	225.9232565	0.398640399999294	0
235.4761092	0	nonword	concrete	paspock	237.0230498	0.519492999999783	1
244.2753574	0	nonword	abstract	visinative	246.1086351	0.372566899999583	1
253.3759404	0	word	concrete	telescope	255.0064867	0.367598099999668	1
257.1590183	0	nonword	concrete	vorduct	258.873254	0.482911000000058	1
261.0247639	0	nonword	abstract	illasive	262.7729973	0.363853299999846	1
272.3260452	0	word	concrete	sculpture	273.8554431	0.39581009999938	0
278.3095704	0	nonword	abstract	indispry	279.9216738	0.383439399999588	1
282.0761504	0	word	abstract	aggravation	283.8590866	0.402028399999835	1
288.3221764	0	word	abstract	eternity	289.9727373	0.421692799999618	1
292.1255469	0	word	concrete	bartender	293.8067033	0.41128929999968	1
298.2578434	0	nonword	abstract	frasinidy	299.9398963	0.407551999999668	1
307.1931719	0	nonword	concrete	radegourse	309.0228002	0.354862199999388	1
311.175618	0	word	abstract	imposition	312.8926	0.357199300000047	1
317.3424098	0	word	concrete	dandruff	318.9589465	0.4003246999996	1
328.5091699	0	word	abstract	belief	330.039595	0.38023209999983	1
337.3092641	0	nonword	abstract	eciropy	338.9722592	0.40712349999967	1
346.2261089	0	word	concrete	parasite	347.909129	0.528441399999792	1
352.3762631	0	nonword	abstract	utiricy	354.1086907	0.380920499999774	1
356.272859	0	word	concrete	platform	357.9591413	0.441307599999618	0
365.2093455	0	word	abstract	morality	366.8562439	0.423998599999322	1
376.4083216	0	word	abstract	coincidence	378.339852	0.431629099999554	1
387.8925293	0	nonword	abstract	assinilaze	389.7253282	0.366039799999725	1
394.1754731	0	nonword	concrete	broish	395.7065152	0.429632799999581	0
402.9589085	0	word	abstract	indecision	404.6085643	0.495969099999456	0
406.7589019	0	nonword	concrete	purtroit	408.4573106	0.512757599999986	1
415.7089609	0	word	concrete	morphine	417.2993941	0.598596599999382	0
421.72594	0	nonword	abstract	inmilary	423.3736198	0.409068199999637	1
432.9247946	0	nonword	abstract	equaniry	434.54193	0.454462499999408	0
441.7924518	0	word	concrete	capsule	443.392577	0.379923199999666	1
445.5423501	0	nonword	concrete	waperlane	447.2422141	0.31608369999958	1
451.6923557	0	nonword	abstract	imsessably	453.4925458	0.367688099999668	1
457.9424488	0	nonword	concrete	captrous	459.6254617	0.449034899999787	1
469.1923718	0	word	abstract	possibility	470.8898583	0.441232299999683	1
475.3426919	0	nonword	concrete	scrautchen	477.0582755	0.541119099999832	1
484.3089587	0	nonword	abstract	expanitive	486.2723741	0.584090199999991	1
488.4258278	0	word	abstract	implication	490.2902727	0.386939900000015	1
492.4421937	0	nonword	concrete	comgoor	494.0728998	0.394268499999725	1
503.6257249	0	word	concrete	fortress	505.3395019	0.500940299999911	0
507.4937305	0	nonword	abstract	timisipy	509.1395631	0.42194309999968	0
518.6926696	0	word	abstract	existence	520.4734316	0.352140699999381	1
527.7256393	0	nonword	concrete	straunchen	529.4227988	0.601805899999817	0
533.8754894	0	nonword	abstract	erripeous	535.5567887	0.543943799999851	1
537.7092171	0	word	concrete	skateboard	539.5397515	0.396985699999731	0
541.6924183	0	word	abstract	eminence	543.473142	0.43667699999969	1
550.725681	0	nonword	concrete	scurecraw	552.6560798	0.400075399999423	1
554.8087905	0	word	abstract	injustice	556.5396218	0.35579269999971	1
558.6925051	0	word	concrete	tapeworm	560.1919031	0.44895999999926	1
564.6420969	0	nonword	abstract	rigilicy	566.2896695	0.453464199999871	1
573.5419234	0	word	abstract	adversity	575.3412802	0.439746000000013	1
579.7923288	0	word	concrete	scalpel	581.3750521	0.482085899999674	0
583.5258168	0	word	abstract	fixation	585.3250194	0.451122499999655	1
587.4925533	0	nonword	concrete	charoit	589.1252711	0.816613699999834	1
596.3758261	0	word	concrete	sandpaper	598.1085862	0.434837499999957	1
607.6589354	0	word	concrete	vault	609.1061027	0.874303799999779	0
616.3584475	0	nonword	abstract	imfertenal	618.1251444	0.754674099999647	1
627.6753163	0	word	abstract	experience	629.6917241	0.409314599999561	1
636.9417174	0	nonword	concrete	compotarce	638.7246515	0.699739199999839	1
648.27569	0	word	concrete	photograph	650.0415014	0.404427999999825	1
654.4924301	0	nonword	concrete	consoquerce	656.3755342	0.44540089999964	0
665.9413216	0	word	abstract	optimism	667.6748165	0.512758699999722	1
669.8250933	0	word	concrete	merchant	671.4585344	0.569407699999828	0
678.7089101	0	nonword	concrete	honoydaw	680.3750564	0.525588999999399	1
684.8253272	0	nonword	abstract	indisatize	686.8917905	0.617721999999503	1
696.442035	0	nonword	concrete	verbetrate	698.3560279	0.445087799999782	1
702.8088663	0	word	abstract	imagination	704.7733559	0.437576899999385	1
706.9261317	0	word	abstract	equality	708.6061638	0.412899499999639	0
713.0586513	0	word	abstract	ability	714.5736079	0.4692928999998	1
721.8256002	0	nonword	concrete	woistcort	723.6228051	0.517345899999782	1
728.0926042	0	word	abstract	moderation	729.8586335	0.431527999999616	1
732.0080503	0	nonword	abstract	intidinaze	733.9090143	0.468629699999382	1
738.3588139	0	nonword	concrete	pawten	739.8757769	0.536948399999346	1
749.4265575	0	nonword	abstract	illegital	751.0756079	0.486827699999594	1
