onset	duration	trial_type1	trial_type2	stimulus	cue_onset	response_time	correct_response
0.157338749999809	0	nonword	abstract	rigilicy	1.79108979999991	0.609110699999973	1
11.340801749999	0	word	concrete	sandpaper	13.090224299999	0.480169399999795	1
22.640314649999	0	nonword	abstract	afranily	24.240386399999	0.56424099999981	1
31.507397349999	0	nonword	abstract	etrinady	33.138100199999	1.5988393	0
37.59096185	0	word	concrete	grindstone	39.390060999999	0.512220200000001	1
43.840138549999	0	nonword	abstract	agirative	45.654556899999	1.70976799999994	1
47.890869949999	0	nonword	concrete	vacoim	49.4532877	0.563030300000036	0
59.021960549999	0	nonword	concrete	compotarce	60.805154499999	1.25955939999994	0
65.290523449999	0	word	concrete	pillbox	67.0384143	0.587134299999888	1
69.190683849999	0	nonword	abstract	assinilaze	71.022338499999	0.847556300000178	0
78.306849949999	0	nonword	concrete	corropor	79.956253799999	0.520349500000065	1
84.405856649999	0	nonword	abstract	utiricy	86.140565399999	0.552145800000062	1
95.69052685	0	word	concrete	gunpowder	97.357211899999	0.489449800000102	1
104.607515649999	0	nonword	concrete	porcopane	106.2904422	1.59404360000007	1
115.840695949999	0	word	concrete	stopwatch	117.705026799999	0.586437800000112	1
127.258106149999	0	word	abstract	methodology	129.040367799999	0.502070300000014	1
133.490571449999	0	nonword	abstract	equaniry	135.090557299999	0.612460699999928	1
142.340884549999	0	nonword	abstract	obdisative	144.2743273	0.735470099999929	1
146.42404135	0	word	concrete	capsule	148.0073652	0.61614929999996	1
150.15741465	0	word	abstract	imposition	151.8713365	0.59067129999994	1
159.12416425	0	word	abstract	revenge	160.887752999999	0.534023100000013	1
168.140664549999	0	nonword	concrete	tarnoat	169.754739899999	0.636452799999915	1
177.007604849999	0	word	abstract	belief	178.5547057	0.524755599999934	1
183.02256685	0	word	concrete	passport	184.621496299999	0.666851199999882	1
194.17395425	0	word	abstract	imagination	196.137937599999	0.605097799999839	1
198.291042949999	0	nonword	concrete	borpen	199.706894999999	0.580089399999906	1
209.257344349999	0	word	abstract	legacy	210.807184299999	0.567121699999916	1
215.271811149999	0	word	abstract	implication	217.1237978	0.507964899999933	1
226.673328149999	0	nonword	concrete	consoquerce	228.540301299999	0.648439199999984	0
235.792033049999	0	nonword	abstract	insarily	237.504950599999	0.544223200000033	1
244.757678849999	0	nonword	abstract	synpitative	246.740151699999	0.580548800000087	1
248.89092315	0	word	abstract	coincidence	250.821581399999	0.400742899999841	1
255.289085049999	0	nonword	concrete	paronaid	256.889340999999	0.540779400000019	0
266.44094705	0	nonword	abstract	dispeditive	268.357713099999	0.621428300000161	1
272.80764555	0	nonword	concrete	charocper	274.423873399999	0.785919000000149	1
276.574344449999	0	word	abstract	injustice	278.323374299999	0.536155300000018	1
280.47424355	0	nonword	abstract	divisiny	282.023928399999	0.66960640000002	1
289.290271049999	0	word	concrete	crossbow	290.874065299999	0.528320699999994	1
293.03967105	0	nonword	abstract	animitive	294.9219998	0.857804900000019	1
297.07440325	0	nonword	abstract	illasive	298.8053836	0.518958299999894	0
308.35769805	0	nonword	concrete	vortae	309.9382984	0.649848799999972	1
312.090887649999	0	word	abstract	priority	313.755501199999	0.590275400000109	1
323.307680649999	0	nonword	abstract	incimudy	324.9892185	0.701484600000185	1
329.45733705	0	word	abstract	similarity	331.2401242	0.584128099999816	1
338.491061049999	0	word	concrete	forceps	340.374226099999	0.549946799999816	1
349.92465825	0	nonword	abstract	infiritide	351.7905396	0.590055099999972	1
361.340508849999	0	word	concrete	student	362.974446999999	0.676806500000111	1
372.54071815	0	nonword	abstract	esimicate	374.338378899999	1.25365490000012	1
378.79075105	0	nonword	concrete	strangolape	380.571623999999	0.62333209999997	0
382.72446935	0	nonword	concrete	broish	384.254882899999	0.956915399999843	0
391.50748695	0	word	concrete	saxophone	393.2389617	0.594555300000138	1
395.391269049999	0	word	abstract	fixation	397.1738695	0.601931499999864	1
401.639514249999	0	word	concrete	shoemaker	403.288272199999	0.634332500000027	1
407.740527049999	0	nonword	abstract	frasinidy	409.463546899999	0.655596999999943	1
418.99035695	0	word	concrete	wallpaper	420.640507	0.57886110000004	1
425.090864149999	0	nonword	abstract	indispry	426.7054029	0.680402599999979	1
431.156780749999	0	nonword	concrete	woistcort	432.957501699999	1.42215329999999	0
442.507558449999	0	nonword	concrete	tangorle	444.0888575	0.922874299999875	0
446.24103335	0	word	abstract	integration	448.074013599999	0.459636199999977	1
457.623693849999	0	nonword	abstract	execative	459.557731099999	0.72228240000004	1
469.108142449999	0	nonword	abstract	illegolimy	470.822203299999	0.839180800000122	1
478.07439525	0	nonword	concrete	scurecraw	480.0058625	0.622153699999898	1
489.557639449999	0	word	concrete	landmark	491.3723299	0.592611099999885	1
493.52364515	0	nonword	concrete	verbetrate	495.4241197	0.724213299999974	1
499.89065975	0	word	abstract	mortality	501.657309899999	0.570500300000048	1
503.807968949999	0	nonword	concrete	wearabro	505.5072379	1.26843170000006	1
512.75759535	0	nonword	abstract	visinative	514.5730396	n/a	0
516.724329349999	0	word	concrete	cartridge	518.422014599999	0.480996600000025	1
522.87433745	0	nonword	abstract	viciridy	524.538580999999	0.509739599999875	1
531.80409145	0	nonword	concrete	comgoor	533.438163199999	0.484300500000017	1
540.705063749999	0	word	abstract	moderation	542.438498599999	0.59490750000009	1
551.991016849999	0	word	concrete	parasite	553.6718104	0.559877099999994	1
560.924701249999	0	word	concrete	satellite	562.740461	0.723090299999967	1
564.891523149999	0	nonword	concrete	congrogale	566.524370499999	0.754119700000046	1
568.674311849999	0	word	abstract	realism	570.374462299999	0.491815899999892	1
577.624470749999	0	nonword	abstract	nofilicy	579.288481499999	0.597457900000108	1
588.857377449999	0	word	concrete	photograph	590.605219799999	0.923711799999864	1
600.15761245	0	nonword	concrete	comprohind	601.971928299999	0.810424500000181	1
604.12403015	0	nonword	abstract	occiputive	606.0411638	0.477850999999873	1
610.491196549999	0	nonword	concrete	troitor	612.039112099999	0.767862200000081	0
619.291198449999	0	word	abstract	eternity	620.941190899999	0.753247599999895	1
623.091334249999	0	word	abstract	adversity	624.8555481	0.615611899999976	1
634.407718249999	0	word	concrete	cucumber	635.9889029	0.531601900000168	1
638.141081349999	0	nonword	concrete	purtroit	639.824343899999	0.83101170000009	1
647.091296949999	0	word	abstract	fantasy	648.7391887	0.58009979999997	0
655.990453349999	0	word	concrete	dandruff	657.6054254	0.588923599999816	1
659.758181349999	0	word	abstract	solidarity	661.590609399999	0.492694000000028	1
668.841288449999	0	nonword	abstract	dissilative	670.7721948	0.490715399999771	1
672.924131749999	0	word	abstract	aggravation	674.7075792	0.538142500000049	1
679.15742525	0	word	concrete	merchant	680.7909418	0.430938500000138	1
690.341176149999	0	nonword	abstract	imsessably	692.1726247	0.546753999999964	0
696.625153949999	0	word	abstract	desperation	698.4394268	0.634083400000008	0
702.906812049999	0	word	abstract	experience	704.9222901	1.02561209999998	1
707.074655649999	0	word	concrete	platform	708.771997499999	0.58215610000002	1
713.224171649999	0	nonword	concrete	straunchen	714.905323399999	0.575879400000076	1
722.157652749999	0	word	concrete	telescope	723.8051597	0.438770400000066	1
731.05777365	0	nonword	abstract	impinling	732.855318899999	0.535426799999868	1
737.30764065	0	word	concrete	skateboard	739.141085599999	0.520973500000081	1
743.59221925	0	nonword	concrete	paspock	745.1409295	0.63683519999995	1
752.407759849999	0	word	concrete	sergeant	754.0904969	0.537417500000174	1
