onset	duration	trial_type1	trial_type2	stimulus	cue_onset	response_time	correct_response
0.1496701599998	0	word	concrete	forceps	2.04233979999989	1.04525450000028	0
4.1997579600001	0	word	abstract	alienation	5.9970157999998	0.59040189999996	1
15.5499601599999	0	nonword	concrete	rodose	17.1808192999998	0.642766300000403	1
24.4331856600001	0	word	abstract	extent	26.0334436	0.572278600000117	1
33.30005746	0	word	abstract	affirmative	35.1826091999998	0.535882799999853	1
39.63314066	0	word	abstract	desperation	41.447170799999	0.647755399999823	1
48.69974626	0	nonword	concrete	pawten	50.199750399999	0.713587700000061	1
59.74942786	0	nonword	concrete	consoquerce	61.630523099999	0.715097000000241	1
71.183638659999	0	word	concrete	platform	72.8797799	0.514465299999756	1
77.34922476	0	word	abstract	implication	79.197217399999	0.585750000000189	1
83.65022136	0	word	concrete	petticoat	85.283263399999	0.541429700000208	1
94.83297016	0	nonword	abstract	rigilicy	96.4810703	1.06062250000013	0
103.73333576	0	word	abstract	indecision	105.364856299999	0.574411300000065	1
109.816446859999	0	word	concrete	crossbow	111.3833044	0.545562000000245	1
120.95000156	0	nonword	abstract	receoviple	122.7814571	1.59792849999985	1
127.23201236	0	nonword	concrete	corropor	128.8967487	0.495863199999803	1
138.46330156	0	word	concrete	photograph	140.2330506	0.568641599999864	1
147.483339259999	0	word	abstract	curiosity	149.2973201	0.595039399999677	1
158.850194659999	0	word	abstract	precedent	160.3998859	1.2036409999996	1
167.650005859999	0	nonword	concrete	magbouse	169.4806558	0.667674199999964	1
171.633467459999	0	nonword	concrete	paronaid	173.2482652	0.452871199999663	0
177.70005226	0	word	concrete	gunpowder	179.347451499999	0.598485299999993	1
181.499850359999	0	word	abstract	destiny	182.966038799999	0.485537300000032	0
187.416667359999	0	nonword	concrete	practocan	188.9966083	0.702794799999992	1
198.550190259999	0	word	concrete	dandruff	200.1641477	0.433548799999698	1
207.417006659999	0	nonword	concrete	vorduct	209.149407099999	0.813142099999822	1
211.31523796	0	nonword	abstract	esimicate	213.1334548	1.25867930000003	1
222.700088659999	0	nonword	concrete	compotarce	224.483076499999	0.483898400000271	1
226.633414559999	0	word	concrete	bartender	228.2998051	0.359750300000087	1
230.45032836	0	nonword	concrete	radegourse	232.2972839	0.874919299999874	1
241.850348559999	0	word	abstract	indulgence	243.9162945	0.478647900000396	1
251.166360059999	0	word	abstract	theory	252.7164562	0.593558799999755	0
257.16686746	0	word	concrete	sculpture	258.700201299999	0.571882300000197	1
263.15142726	0	nonword	abstract	viciridy	264.815051899999	1.25685120000025	1
272.066226559999	0	word	abstract	equality	273.7335076	0.61249829999997	1
283.283598559999	0	word	concrete	vault	284.714619699999	0.635520799999994	1
289.183728659999	0	word	concrete	telescope	290.833398699999	0.787001400000008	0
300.383503359999	0	nonword	abstract	frigiliny	301.9977111	0.614766100000451	1
306.45026076	0	word	concrete	coastline	308.083565099999	0.520550400000047	1
312.533823759999	0	word	concrete	frostbite	314.3150757	0.571341300000312	1
316.466838859999	0	word	concrete	lantern	317.9981743	0.805813200000102	0
327.56717616	0	nonword	abstract	illegital	329.2148736	0.814016899999842	1
338.76694936	0	word	abstract	legacy	340.3341665	0.474352399999588	1
349.883377059999	0	nonword	concrete	permonaride	351.7641504	0.572342299999945	1
359.031497959999	0	word	abstract	intention	360.764472	1.00335919999997	1
365.217315259999	0	nonword	concrete	verbetrate	367.1310755	0.8020333999998	1
374.40059496	0	nonword	abstract	intidinaze	376.281328299999	0.592936399999871	1
380.73314346	0	word	abstract	tradition	382.199999099999	0.468651799999861	1
386.65051906	0	nonword	abstract	illegolimy	388.3664767	0.96603929999992	1
390.517189359999	0	nonword	concrete	porcopane	392.181016199999	0.726182599999901	1
396.633335859999	0	word	abstract	integrity	398.3999154	0.625829600000088	1
407.95019966	0	nonword	concrete	parochate	409.664784899999	0.990461800000048	1
411.81751616	0	word	abstract	suspicion	413.431322	1.15281929999991	0
420.68384396	0	nonword	concrete	congrogale	422.3003669	0.53750650000029	1
424.450386559999	0	nonword	abstract	obdisative	426.367097399999	0.677445199999965	1
433.617297759999	0	nonword	abstract	illasive	435.350384799999	1.28077319999965	0
444.90032206	0	word	abstract	moderation	446.6648661	0.770164599999589	1
451.11742576	0	nonword	concrete	crauben	452.6838467	0.721012499999687	1
454.84835366	0	nonword	abstract	assinilaze	456.6668888	0.562216600000283	0
463.917341259999	0	nonword	concrete	turtore	465.5668388	0.629795299999841	1
467.71738146	0	word	concrete	spokesman	469.415086199999	0.651376400000117	1
471.567340659999	0	nonword	concrete	paspock	473.1334816	0.615972699999929	1
480.38410866	0	nonword	abstract	intoirive	482.1335369	0.829387700000097	1
491.68394196	0	nonword	abstract	erripeous	493.3646962	0.881476699999893	1
495.51740366	0	word	abstract	morality	497.165525199999	0.476086900000154	1
499.319516059999	0	nonword	concrete	woistcort	501.131356999999	0.789176300000235	1
508.38412986	0	word	abstract	similarity	510.1669815	0.801998600000388	1
519.717176059999	0	nonword	abstract	inmilary	521.350792999999	0.648045699999784	1
528.600341159999	0	word	concrete	scalpel	530.1817641	1.11478450000004	0
539.73384136	0	word	abstract	formality	541.416566799999	0.654425700000047	1
548.684101859999	0	word	abstract	mortality	550.4506179	0.540889800000059	1
552.600914659999	0	nonword	concrete	broish	554.131309199999	1.13882580000017	1
563.68395446	0	word	abstract	aggravation	565.4503568	1.28423620000012	1
572.700742559999	0	nonword	concrete	vorced	574.367473	0.691495699999904	1
581.617457759999	0	nonword	abstract	occiputive	583.5148624	0.555264099999931	1
587.96739866	0	nonword	abstract	incritilate	589.881433899999	0.875002700000095	1
592.050719559999	0	word	concrete	bayonet	593.601308999999	0.901312800000141	0
598.049367659999	0	word	abstract	ideology	599.7980269	0.675605299999915	1
604.26716256	0	nonword	abstract	frasinidy	605.9501536	0.614416899999923	1
613.200827759999	0	nonword	abstract	execative	615.149032099999	0.673048699999981	1
619.600495759999	0	word	concrete	student	621.2339104	0.803378899999643	0
623.384435259999	0	nonword	abstract	nofilicy	625.050536899999	0.730218900000181	1
634.60083646	0	nonword	abstract	equaniry	636.2173039	0.877853800000139	1
640.66763836	0	word	concrete	sandpaper	642.400709499999	0.629198000000087	1
644.551012859999	0	word	abstract	optimism	646.300968599999	0.623028900000008	0
648.451178559999	0	word	abstract	injustice	650.1841021	0.723237300000164	1
654.648469159999	0	nonword	concrete	woimed	656.198579799999	1.40351340000006	1
665.750600159999	0	nonword	concrete	vortae	667.334274399999	0.860007799999948	1
674.583705059999	0	nonword	concrete	scurecraw	676.5173121	0.749963000000207	1
678.66758156	0	word	abstract	imposition	680.384299399999	0.558809699999983	0
682.533888959999	0	nonword	concrete	vacoim	684.098202899999	1.03862899999967	1
686.25096836	0	nonword	abstract	intirgiment	688.1821692	0.735938700000133	1
695.43409176	0	word	concrete	cucumber	697.017014199999	0.565112000000226	1
699.167890459999	0	nonword	abstract	inciponle	700.9488477	1.13624269999991	1
708.200994759999	0	word	concrete	sportsman	709.898741	0.58478500000001	1
719.45071266	0	nonword	abstract	infiritide	721.3147878	0.525953100000151	1
723.46723806	0	nonword	concrete	proschoot	725.1502935	0.92387090000011	0
732.40076936	0	nonword	concrete	straunchen	734.0817921	0.620222699999885	1
738.53365186	0	word	abstract	methodology	740.3341633	0.908443199999965	0
744.801248459999	0	nonword	concrete	wearabro	746.5007379	0.880308900000272	1
