onset	duration	trial_type1	trial_type2	stimulus	cue_onset	response_time	correct_response
0.157259109999003	0	nonword	concrete	rodose	1.7907103	0.895952500000021	1
6.23847980999901	0	word	abstract	implication	8.104204799999	0.595020100000056	1
15.357310009999	0	nonword	abstract	vulginiry	17.0877633	0.83820639999999	1
26.640600009999	0	nonword	abstract	incimudy	28.323463999999	1.55762530000015	1
37.874038409999	0	nonword	concrete	woistcort	39.673638099999	n/a	0
46.924031709999	0	word	abstract	priority	48.621419399999	0.520586500000263	1
55.890776509999	0	nonword	abstract	execative	57.838340399999	1.01640640000005	0
62.29052321	0	nonword	concrete	pawten	63.788143799999	0.470698900000115	0
73.340125009999	0	nonword	concrete	comprohind	75.155092399999	0.759122599999955	1
82.407308809999	0	word	concrete	student	84.037576799999	0.454884900000024	1
93.59075031	0	nonword	abstract	inciponle	95.3734075	0.488781199999948	1
97.523041109999	0	nonword	concrete	practocan	99.1047684	1.08808139999996	0
101.256862809999	0	word	abstract	indulgence	103.340601399999	0.5199419999999	1
110.590571309999	0	nonword	abstract	agirative	112.4045695	0.551676900000075	0
114.556806709999	0	nonword	abstract	intidinaze	116.473933999999	1.18919690000029	1
123.740714309999	0	nonword	concrete	paspock	125.3376346	1.19758569999999	0
129.790735109999	0	word	concrete	stopwatch	131.671553999999	0.495462299999871	1
133.823874109999	0	word	abstract	imposition	135.540216099999	0.549464400000033	1
137.690622909999	0	word	abstract	realism	139.371480499999	0.469223700000156	1
146.624158109999	0	nonword	abstract	expanitive	148.589959499999	0.51572010000018	1
153.040915009999	0	nonword	concrete	troitor	154.586570599999	0.669589600000108	1
161.840179609999	0	word	abstract	legacy	163.406962199999	0.409749800000099	1
167.857608509999	0	nonword	abstract	impinling	169.657315399999	0.569025500000179	1
174.106573909999	0	nonword	abstract	utiricy	175.8566248	1.28267520000008	1
185.424246509999	0	word	concrete	teaspoon	187.057037899999	1.09742760000017	0
194.30758451	0	word	abstract	intention	196.057027399999	0.514680600000019	1
203.307332609999	0	nonword	concrete	bofcoit	204.940453299999	0.555442600000105	1
207.090637209999	0	nonword	abstract	dissilative	209.022793399999	0.942580000000134	0
213.474306109999	0	word	concrete	tapeworm	214.956724199999	1.08537920000003	0
219.407387309999	0	nonword	concrete	paronaid	221.021271699999	0.595543899999938	0
228.273369609999	0	nonword	concrete	turtore	229.904961499999	0.765128800000184	0
232.073829109999	0	word	abstract	eternity	233.704889599999	0.440678200000093	1
243.27235961	0	nonword	abstract	imsessably	245.090005299999	0.949060899999949	0
254.640714209999	0	word	concrete	shoemaker	256.288135899999	0.572594200000139	1
258.441248409999	0	nonword	abstract	insarily	260.174044099999	0.454418400000122	1
264.640891909999	0	nonword	abstract	divisiny	266.187690999999	0.921588600000177	1
270.640686509999	0	nonword	abstract	imfertenal	272.388256099999	1.8502383	1
274.756390609999	0	word	concrete	capsule	276.356437299999	0.461083700000244	1
278.507468709999	0	word	abstract	formality	280.187882699999	0.483417400000007	1
282.340974609999	0	nonword	concrete	soits	283.9541591	0.800412400000141	0
293.507734109999	0	nonword	concrete	radegourse	295.357569899999	0.547919000000092	1
302.607637409999	0	word	abstract	expertise	304.505131599999	0.619898600000169	1
308.956970109999	0	word	concrete	warship	310.5875457	0.951706700000158	1
312.74075821	0	nonword	abstract	immociary	314.520212599999	0.584231100000124	1
318.974249609999	0	nonword	abstract	equaniry	320.605116799999	0.562273799999957	1
325.074277109999	0	word	abstract	integrity	326.837896199999	0.511760500000036	1
328.989617709999	0	nonword	concrete	controbate	330.706498099999	0.530212399999982	1
340.257761209999	0	word	concrete	skateboard	342.0906338	1.12847910000004	0
349.341259709999	0	word	abstract	destiny	350.805213799999	0.576511100000061	1
355.257373709999	0	word	abstract	aggravation	357.007318999999	0.427463700000089	1
359.171156609999	0	nonword	concrete	permonaride	361.0373608	0.999266400000124	1
363.191103509999	0	word	abstract	optimism	364.938322199999	0.518440600000076	1
369.390582909999	0	nonword	abstract	actiliry	370.988430299999	0.9899647000002	1
373.141256509999	0	nonword	concrete	vortae	374.704444699999	0.980612100000144	1
381.973517609999	0	word	concrete	frostbite	383.757311999999	0.424774800000022	1
393.307748609999	0	word	concrete	vault	394.757000999999	0.512911999999914	1
402.00749301	0	nonword	abstract	intirgiment	403.963833099999	0.543348800000103	1
413.49078541	0	word	concrete	petticoat	415.123980599999	0.71670730000028	0
417.274589609999	0	nonword	abstract	illegolimy	418.9901473	0.653347900000198	1
421.141112309999	0	word	concrete	platform	422.8408425	1.63121789999991	0
432.391062109999	0	word	abstract	equality	434.055350499999	0.609580900000082	1
443.620567609999	0	word	abstract	morality	445.271541899999	0.69699340000011	1
454.825693809999	0	nonword	concrete	scrautchen	456.538587399999	0.579622400000062	1
466.091175709999	0	nonword	concrete	compotarce	467.8714229	0.8614606000001	1
470.04022511	0	word	concrete	scorpion	471.771912499999	0.446889700000156	1
479.02435881	0	nonword	abstract	viciridy	480.707461499999	0.611297100000001	1
485.172189909999	0	word	concrete	passport	486.771698299999	0.493265600000086	1
496.32506741	0	word	concrete	lantern	497.857912499999	0.507033500000261	1
500.022037609999	0	word	concrete	caravan	501.623966199999	0.52009380000004	1
511.19114541	0	nonword	abstract	incritilate	513.104831899999	0.565385300000116	1
522.65698961	0	nonword	concrete	proschoot	524.3545935	0.576366100000086	1
528.824683209999	0	word	concrete	sportsman	530.5381943	0.447176300000137	1
532.69136381	0	nonword	concrete	consoquerce	534.574048699999	0.553868400000055	1
544.124167809999	0	nonword	abstract	erripeous	545.806688799999	0.93340349999994	1
553.074417209999	0	nonword	abstract	assinilaze	554.904989799999	0.726656199999752	0
564.457319809999	0	word	concrete	stateroom	566.1068224	0.935103399999889	0
570.573380009999	0	word	abstract	coincidence	572.490369899999	0.41829470000016	1
582.040153609999	0	word	concrete	hamburger	583.6555309	0.605596500000274	1
588.107769909999	0	nonword	concrete	procunct	589.856630299999	0.396662000000333	1
594.30711891	0	word	abstract	ideology	596.0557699	0.470428700000184	1
600.52227691	0	nonword	abstract	visinative	602.355810999999	0.689157200000181	1
606.807448009999	0	nonword	concrete	charocper	608.423854899999	0.616215799999963	1
617.974671409999	0	nonword	concrete	purtroit	619.673611899999	0.500105300000314	1
629.223990109999	0	word	concrete	dandruff	630.838752	0.536564299999781	1
638.090986709999	0	nonword	abstract	etrinady	639.722113699999	1.19522859999983	1
641.874968409999	0	word	concrete	photograph	643.6398681	0.438415100000156	1
650.891175309999	0	nonword	concrete	magbouse	652.707054099999	0.536634200000435	1
659.95657131	0	nonword	concrete	corropor	661.605678599999	0.86192539999979	1
668.857227709999	0	word	abstract	adversity	670.638240599999	0.516722900000104	1
672.79102641	0	word	abstract	eminence	674.5572388	0.56741850000003	1
679.023618409999	0	word	concrete	cucumber	680.621084999999	0.446448599999939	1
682.77382321	0	nonword	abstract	obdisative	684.704561	0.440229800000224	1
691.957896909999	0	word	concrete	scalpel	693.538513399999	0.474375900000495	1
695.69174801	0	word	abstract	moderation	697.456897499999	0.462665700000116	1
707.023479609999	0	word	abstract	indecision	708.657716599999	0.659716999999773	1
715.907696009999	0	nonword	concrete	wearabro	717.605217599999	0.576937900000075	1
724.85800951	0	word	concrete	bayonet	726.4080085	0.453937600000017	1
733.673122809999	0	nonword	abstract	illegital	735.305351199999	0.583412799999905	1
739.758206909999	0	word	concrete	grindstone	741.558225899999	1.36102499999992	0
751.10824271	0	word	abstract	experience	753.121101899999	0.500147099999821	1
