onset	duration	trial_type1	trial_type2	stimulus	cue_onset	response_time	correct_response
0.157798800000002	0	nonword	concrete	proschoot	1.8513090999999	0.662207899999884	1
9.1091253999999	0	nonword	abstract	imsessably	10.9422185999998	0.807133399999884	0
13.0922084999998	0	word	abstract	possibility	14.7916076999999	0.572669200000063	1
16.9589701999999	0	word	concrete	courthouse	18.7757358999999	0.47167249999984	1
28.3266101999999	0	nonword	abstract	actiliry	29.9396948	n/a	0
37.1927612999999	0	nonword	abstract	inciponle	38.9722635	0.647688699999889	1
41.126104099999	0	nonword	abstract	deslicative	43.1728009	0.672666100000014	1
52.739544899999	0	word	concrete	fortress	54.442320099999	0.523853099999996	1
58.8923867	0	nonword	abstract	esimicate	60.7253178	0.548071899999968	1
62.8759801	0	word	abstract	ideology	64.6257419	0.462036699999998	1
69.0762589	0	nonword	abstract	eciropy	70.7396624	0.581934899999851	1
72.892673799999	0	nonword	concrete	practocan	74.458822799999	0.512037299999747	1
81.709550799999	0	word	concrete	saxophone	83.4591075	0.605316999999786	1
90.709676	0	nonword	abstract	assinilaze	92.542272399999	0.652458799999976	0
99.7925985	0	word	abstract	theory	101.340212	0.598518799999965	0
108.5925381	0	word	abstract	desperation	110.406749899999	0.599307599999974	1
114.859630099999	0	nonword	concrete	straunchen	116.5587516	0.474967699999979	1
126.1091106	0	nonword	abstract	viciridy	127.7734843	0.603310899999769	1
135.026105399999	0	word	concrete	stateroom	136.673337299999	0.624493799999754	0
141.125814599999	0	word	abstract	formality	142.8060207	0.635468599999967	1
144.959007	0	nonword	concrete	godgeboom	146.5591569	0.579221499999903	1
151.02544	0	nonword	concrete	verbetrate	152.9399422	0.768477699999721	1
162.492665299999	0	word	abstract	methodology	164.292546099999	0.619776999999885	1
173.8426168	0	nonword	abstract	synpitative	175.8231726	1.07051749999982	1
183.0761845	0	nonword	concrete	radegourse	184.9234452	0.560672900000099	1
192.176136199999	0	nonword	concrete	vorduct	193.905548599999	0.691753999999946	1
198.3763767	0	word	concrete	petticoat	199.9893446	0.529384100000015	0
207.2425199	0	nonword	abstract	intidinaze	209.1558626	0.626314800000045	1
216.424109	0	nonword	abstract	agirative	218.2230431	0.710227699999904	1
227.7761843	0	nonword	concrete	comprohind	229.5890827	0.639312999999901	1
231.757276	0	word	concrete	frostbite	233.539510699999	0.745195899999998	1
243.0929679	0	word	abstract	adversity	244.891064899999	0.61551489999988	1
252.1427713	0	word	concrete	morphine	253.689636499999	0.558941799999956	1
258.1593543	0	nonword	abstract	inmilary	259.792390199999	0.422489699999914	1
267.059391299999	0	word	concrete	skateboard	268.8896273	1.09149189999993	1
273.3427925	0	word	concrete	dandruff	274.956443499999	0.520313399999849	1
277.1095551	0	nonword	concrete	captrous	278.789304699999	0.65096040000003	1
288.3428608	0	nonword	abstract	rigilicy	289.9752954	0.847608499999978	1
294.4262482	0	nonword	abstract	incimudy	296.0925325	0.605566100000032	1
300.5426924	0	word	concrete	coastline	302.192461399999	0.545792399999982	1
309.4429331	0	nonword	concrete	permonaride	311.323726099999	0.575681699999904	1
313.475806699999	0	word	concrete	bayonet	315.042533	0.584707199999911	1
322.2931068	0	word	abstract	priority	323.972677799999	0.785050199999886	1
328.42609	0	word	concrete	sculpture	329.9725157	0.787613099999816	0
334.4262541	0	nonword	concrete	persocate	336.1425157	0.509818699999868	1
338.2924557	0	word	abstract	intention	340.039869899999	0.60784179999996	1
347.2927673	0	nonword	concrete	tangorle	348.8904919	0.608450100000027	1
358.442782199999	0	nonword	concrete	soits	360.055791499999	0.635832299999719	0
367.309020399999	0	nonword	abstract	incritilate	369.223112699999	0.508372999999892	1
376.4764445	0	word	concrete	passport	378.072826499999	0.59658319999994	1
387.626028	0	word	abstract	imagination	389.5895487	0.492584599999872	1
391.7424522	0	nonword	concrete	honoydaw	393.389577699999	0.517240899999933	1
395.542797199999	0	nonword	abstract	occiputive	397.4592261	0.503030200000012	1
401.909506899999	0	nonword	concrete	scurecraw	403.8426332	0.496876799999881	1
406.0071282	0	word	concrete	parasite	407.676133299999	0.399563599999737	1
409.8262352	0	nonword	abstract	indispry	411.482071699999	0.553243500000007	1
413.609824699999	0	nonword	concrete	portabro	415.2731198	0.493531099999927	1
419.726195599999	0	nonword	abstract	immociary	421.4927586	0.564372399999911	1
423.6597083	0	word	abstract	solidarity	425.506053799999	0.94058619999987	1
435.0591521	0	nonword	abstract	erripeous	436.742523399999	1.04522639999981	1
438.893753199999	0	word	concrete	grindstone	440.6926152	0.553422299999965	1
445.1429348	0	nonword	abstract	receoviple	446.9590571	0.506508400000029	1
451.4097301	0	word	concrete	landmark	453.2233224	1.34284840000009	1
460.4760849	0	nonword	concrete	strangolape	462.257166999999	n/a	0
464.4092003	0	word	concrete	campus	465.972797899999	1.24284109999985	0
470.4259633	0	word	abstract	precedent	471.9732876	0.614469099999951	1
479.2259957	0	word	concrete	student	480.8585824	0.411426599999913	1
490.4227593	0	nonword	concrete	borpen	491.842868499999	0.656257599999889	1
496.292725799999	0	word	abstract	curiosity	498.109134299999	0.711302200000091	1
505.359088199999	0	nonword	concrete	vortae	506.942809499999	0.935606399999642	1
516.4922037	0	nonword	concrete	compotarce	518.273416699999	0.64831879999997	1
522.726061299999	0	nonword	abstract	nofilicy	524.406889899999	0.57924590000016	1
526.5592016	0	word	abstract	integration	528.390269699999	0.549075499999844	1
537.942815899999	0	nonword	abstract	vulginiry	539.6924377	0.54395909999971	1
549.2427148	0	nonword	concrete	congrogale	550.888982599999	0.489444799999773	1
553.042717799999	0	nonword	abstract	respirlinle	554.8232124	0.619039800000109	1
562.0928615	0	word	abstract	imposition	563.808974	n/a	0
573.3597221	0	nonword	abstract	animitive	575.2424684	0.750889600000164	1
584.792828699999	0	nonword	concrete	charocper	586.4086725	0.405591800000138	1
588.5590977	0	nonword	abstract	impinling	590.359296099999	0.411550500000203	1
599.9095523	0	word	abstract	fantasy	601.556160399999	0.522631599999613	1
603.708867599999	0	nonword	concrete	turtore	605.342127599999	0.516765099999929	1
614.892574599999	0	nonword	abstract	dissilative	616.8253766	0.749344799999789	1
621.2912015	0	nonword	concrete	paronaid	622.8914767	0.600963300000103	0
632.4422828	0	word	abstract	symbolism	634.190372699999	0.584935499999801	1
638.6585339	0	nonword	abstract	timisipy	640.3085755	1.11247780000007	1
642.4589478	0	nonword	abstract	frasinidy	644.1387826	0.453573900000037	1
648.5922991	0	word	concrete	wallpaper	650.2417617	0.527832599999555	1
659.7928285	0	word	abstract	equality	661.456985899999	0.501781100000016	1
663.608968	0	word	concrete	spokesman	665.3233281	0.425425300000142	1
674.8763643	0	nonword	abstract	afranily	676.473628799999	0.470431199999666	1
686.0256398	0	word	abstract	optimism	687.773435399999	0.193656900000178	1
695.025327599999	0	word	concrete	sandpaper	696.7731377	0.431356299999833	1
701.225566	0	nonword	abstract	illegolimy	702.9238352	0.43927890000009	1
712.476158899999	0	word	abstract	eternity	714.125453499999	0.514429600000085	1
718.575544799999	0	word	concrete	scorpion	720.3082563	0.4460346999997	1
724.774945099999	0	nonword	concrete	paspock	726.358705699999	0.528859399999646	1
733.6090345	0	word	concrete	vault	735.041790499999	0.516142700000045	1
744.5920157	0	word	abstract	expertise	746.474747499999	0.610267499999508	0
753.7409769	0	word	concrete	shoemaker	755.3734259	0.565041199999768	0
